trials.thisRepN,trials.thisTrialN,trials.thisN,trials.thisIndex,textbox.text,textbox.started,textbox.stopped,sound_1.started,sound_1.stopped,test_A.started,test_A.stopped,participant,session,date,expName,psychopyVersion,frameRate,
0,0,0,0,"TEST

Pattern mismatch experiment

Higher/Louder",9.497371400000702,None,14.499788200000332,None,14.491150100002415,None,test,001,2021_Apr_19_1620,pattern_mismatch,2021.1.4,60.032585687098354,
1,0,1,0,,,,14.982729300002394,None,14.982850100001087,None,test,001,2021_Apr_19_1620,pattern_mismatch,2021.1.4,60.032585687098354,
2,0,2,0,,,,15.482579300002545,None,15.482398799998919,None,test,001,2021_Apr_19_1620,pattern_mismatch,2021.1.4,60.032585687098354,
3,0,3,0,,,,15.982283199999802,None,15.982437499998923,None,test,001,2021_Apr_19_1620,pattern_mismatch,2021.1.4,60.032585687098354,
4,0,4,0,,,,16.482352700001503,None,16.48224520000076,None,test,001,2021_Apr_19_1620,pattern_mismatch,2021.1.4,60.032585687098354,
5,0,5,0,,,,16.981972500002303,None,16.982451500000025,None,test,001,2021_Apr_19_1620,pattern_mismatch,2021.1.4,60.032585687098354,
6,0,6,0,,,,17.481824999999663,None,17.481787200002145,None,test,001,2021_Apr_19_1620,pattern_mismatch,2021.1.4,60.032585687098354,
7,0,7,0,,,,17.981622800002516,None,17.981562900000426,None,test,001,2021_Apr_19_1620,pattern_mismatch,2021.1.4,60.032585687098354,
8,0,8,0,,,,18.48153440000242,None,18.481577099999413,None,test,001,2021_Apr_19_1620,pattern_mismatch,2021.1.4,60.032585687098354,
9,0,9,0,,,,18.981616900001246,None,18.98151620000135,None,test,001,2021_Apr_19_1620,pattern_mismatch,2021.1.4,60.032585687098354,
10,0,10,0,,,,19.481798600002367,19.58103100000153,19.48226649999924,None,test,001,2021_Apr_19_1620,pattern_mismatch,2021.1.4,60.032585687098354,
11,0,11,0,,,,19.98099920000168,None,19.9808938999995,None,test,001,2021_Apr_19_1620,pattern_mismatch,2021.1.4,60.032585687098354,
12,0,12,0,,,,20.481251500001964,None,20.481231100002333,None,test,001,2021_Apr_19_1620,pattern_mismatch,2021.1.4,60.032585687098354,
13,0,13,0,,,,20.981009800002358,None,20.980980200001795,None,test,001,2021_Apr_19_1620,pattern_mismatch,2021.1.4,60.032585687098354,
14,0,14,0,,,,21.480698600001052,None,21.48154810000051,None,test,001,2021_Apr_19_1620,pattern_mismatch,2021.1.4,60.032585687098354,
15,0,15,0,,,,21.980313100001514,None,21.980190700000094,None,test,001,2021_Apr_19_1620,pattern_mismatch,2021.1.4,60.032585687098354,
16,0,16,0,,,,22.480045699999028,None,22.48047299999962,None,test,001,2021_Apr_19_1620,pattern_mismatch,2021.1.4,60.032585687098354,
17,0,17,0,,,,22.98011100000149,None,22.979762999999366,None,test,001,2021_Apr_19_1620,pattern_mismatch,2021.1.4,60.032585687098354,
18,0,18,0,,,,23.480414700000257,None,23.48174790000121,None,test,001,2021_Apr_19_1620,pattern_mismatch,2021.1.4,60.032585687098354,
19,0,19,0,,,,23.979861399999937,24.079514600001858,23.97967680000147,None,test,001,2021_Apr_19_1620,pattern_mismatch,2021.1.4,60.032585687098354,
20,0,20,0,,,,24.479784500000097,None,24.47927290000007,None,test,001,2021_Apr_19_1620,pattern_mismatch,2021.1.4,60.032585687098354,
21,0,21,0,,,,24.979360699999962,25.079147899999953,24.979147900001408,None,test,001,2021_Apr_19_1620,pattern_mismatch,2021.1.4,60.032585687098354,
22,0,22,0,,,,25.479133000001458,None,25.479050400001142,None,test,001,2021_Apr_19_1620,pattern_mismatch,2021.1.4,60.032585687098354,
23,0,23,0,,,,25.98113640000229,None,25.98848369999905,None,test,001,2021_Apr_19_1620,pattern_mismatch,2021.1.4,60.032585687098354,
24,0,24,0,,,,26.479010399999243,None,26.478685599999153,None,test,001,2021_Apr_19_1620,pattern_mismatch,2021.1.4,60.032585687098354,
25,0,25,0,,,,26.97853710000054,None,26.978769500001363,None,test,001,2021_Apr_19_1620,pattern_mismatch,2021.1.4,60.032585687098354,
26,0,26,0,,,,27.47923240000164,None,27.478639900000417,None,test,001,2021_Apr_19_1620,pattern_mismatch,2021.1.4,60.032585687098354,
27,0,27,0,,,,27.978681100001996,None,27.978522299999895,None,test,001,2021_Apr_19_1620,pattern_mismatch,2021.1.4,60.032585687098354,
28,0,28,0,,,,28.478680400000304,None,28.47833779999928,None,test,001,2021_Apr_19_1620,pattern_mismatch,2021.1.4,60.032585687098354,
29,0,29,0,,,,28.978118700001506,None,28.978037900000345,None,test,001,2021_Apr_19_1620,pattern_mismatch,2021.1.4,60.032585687098354,
30,0,30,0,,,,29.477629500001786,None,29.477669399999286,None,test,001,2021_Apr_19_1620,pattern_mismatch,2021.1.4,60.032585687098354,
31,0,31,0,,,,29.977869900002407,30.077600299999176,29.977783300000738,None,test,001,2021_Apr_19_1620,pattern_mismatch,2021.1.4,60.032585687098354,
32,0,32,0,,,,30.479587800001173,None,30.488653100001102,None,test,001,2021_Apr_19_1620,pattern_mismatch,2021.1.4,60.032585687098354,
33,0,33,0,,,,30.97703579999943,None,30.97720870000194,None,test,001,2021_Apr_19_1620,pattern_mismatch,2021.1.4,60.032585687098354,
34,0,34,0,,,,31.477248500000133,None,31.477120899999136,None,test,001,2021_Apr_19_1620,pattern_mismatch,2021.1.4,60.032585687098354,
35,0,35,0,,,,31.977012500000274,None,31.97716070000024,None,test,001,2021_Apr_19_1620,pattern_mismatch,2021.1.4,60.032585687098354,
36,0,36,0,,,,32.47681420000008,None,32.47678640000231,None,test,001,2021_Apr_19_1620,pattern_mismatch,2021.1.4,60.032585687098354,
37,0,37,0,,,,32.9764906999997,None,32.9765398999989,None,test,001,2021_Apr_19_1620,pattern_mismatch,2021.1.4,60.032585687098354,
38,0,38,0,,,,33.47626860000018,None,33.47609650000231,None,test,001,2021_Apr_19_1620,pattern_mismatch,2021.1.4,60.032585687098354,
39,0,39,0,,,,33.97769860000044,None,33.97613590000037,None,test,001,2021_Apr_19_1620,pattern_mismatch,2021.1.4,60.032585687098354,
40,0,40,0,,,,34.476339800000275,None,34.475755800001934,None,test,001,2021_Apr_19_1620,pattern_mismatch,2021.1.4,60.032585687098354,
41,0,41,0,,,,34.9759149999998,None,34.97581220000211,None,test,001,2021_Apr_19_1620,pattern_mismatch,2021.1.4,60.032585687098354,
42,0,42,0,,,,35.47583540000123,None,35.47558779999963,None,test,001,2021_Apr_19_1620,pattern_mismatch,2021.1.4,60.032585687098354,
43,0,43,0,,,,35.97563549999977,None,35.975506900002074,None,test,001,2021_Apr_19_1620,pattern_mismatch,2021.1.4,60.032585687098354,
44,0,44,0,,,,36.47595749999964,None,36.477201000001514,None,test,001,2021_Apr_19_1620,pattern_mismatch,2021.1.4,60.032585687098354,
45,0,45,0,,,,36.97522559999997,None,36.975110100000165,None,test,001,2021_Apr_19_1620,pattern_mismatch,2021.1.4,60.032585687098354,
46,0,46,0,,,,37.475095900001904,None,37.475159800000256,None,test,001,2021_Apr_19_1620,pattern_mismatch,2021.1.4,60.032585687098354,
47,0,47,0,,,,37.97507789999945,None,37.97495870000057,None,test,001,2021_Apr_19_1620,pattern_mismatch,2021.1.4,60.032585687098354,
48,0,48,0,,,,38.47477259999941,None,38.474457899999834,None,test,001,2021_Apr_19_1620,pattern_mismatch,2021.1.4,60.032585687098354,
49,0,49,0,,,,38.974845000001366,39.07417659999919,38.974473500002205,None,test,001,2021_Apr_19_1620,pattern_mismatch,2021.1.4,60.032585687098354,
50,0,50,0,,,,39.474983799999606,None,39.47521219999908,None,test,001,2021_Apr_19_1620,pattern_mismatch,2021.1.4,60.032585687098354,
51,0,51,0,,,,39.97434219999995,None,39.97410039999886,None,test,001,2021_Apr_19_1620,pattern_mismatch,2021.1.4,60.032585687098354,
52,0,52,0,,,,40.47385590000049,None,40.473769600001106,None,test,001,2021_Apr_19_1620,pattern_mismatch,2021.1.4,60.032585687098354,
53,0,53,0,,,,40.97372330000216,41.07351629999903,40.97360710000066,None,test,001,2021_Apr_19_1620,pattern_mismatch,2021.1.4,60.032585687098354,
54,0,54,0,,,,41.47363699999987,None,41.473631799999566,None,test,001,2021_Apr_19_1620,pattern_mismatch,2021.1.4,60.032585687098354,
55,0,55,0,,,,41.973269900002194,42.07360990000234,41.97328790000029,None,test,001,2021_Apr_19_1620,pattern_mismatch,2021.1.4,60.032585687098354,
56,0,56,0,,,,42.473841899999385,None,42.47399130000122,None,test,001,2021_Apr_19_1620,pattern_mismatch,2021.1.4,60.032585687098354,
57,0,57,0,,,,42.973283300002365,None,42.97320459999901,None,test,001,2021_Apr_19_1620,pattern_mismatch,2021.1.4,60.032585687098354,
58,0,58,0,,,,43.472969300001566,43.572923300002,43.47298790000059,None,test,001,2021_Apr_19_1620,pattern_mismatch,2021.1.4,60.032585687098354,
59,0,59,0,,,,43.97278430000078,None,43.97274169999946,None,test,001,2021_Apr_19_1620,pattern_mismatch,2021.1.4,60.032585687098354,
60,0,60,0,,,,44.472682399999755,None,44.472664600001735,None,test,001,2021_Apr_19_1620,pattern_mismatch,2021.1.4,60.032585687098354,
61,0,61,0,,,,44.97244439999922,None,44.972511800002394,None,test,001,2021_Apr_19_1620,pattern_mismatch,2021.1.4,60.032585687098354,
62,0,62,0,,,,45.47230009999912,None,45.47213380000176,None,test,001,2021_Apr_19_1620,pattern_mismatch,2021.1.4,60.032585687098354,
63,0,63,0,,,,45.9721765000002,None,45.972012500002165,None,test,001,2021_Apr_19_1620,pattern_mismatch,2021.1.4,60.032585687098354,
64,0,64,0,,,,46.47181610000261,None,46.4720836000015,None,test,001,2021_Apr_19_1620,pattern_mismatch,2021.1.4,60.032585687098354,
65,0,65,0,,,,46.97180220000227,None,46.97197479999886,None,test,001,2021_Apr_19_1620,pattern_mismatch,2021.1.4,60.032585687098354,
66,0,66,0,,,,47.47180910000024,None,47.471677000001364,None,test,001,2021_Apr_19_1620,pattern_mismatch,2021.1.4,60.032585687098354,
67,0,67,0,,,,47.971420900001974,None,47.971292000001995,None,test,001,2021_Apr_19_1620,pattern_mismatch,2021.1.4,60.032585687098354,
68,0,68,0,,,,48.47129260000001,None,48.472013499998866,None,test,001,2021_Apr_19_1620,pattern_mismatch,2021.1.4,60.032585687098354,
69,0,69,0,,,,48.97096880000099,49.07099609999932,48.970938900001784,None,test,001,2021_Apr_19_1620,pattern_mismatch,2021.1.4,60.032585687098354,
70,0,70,0,,,,49.471101500000074,None,49.4713840000004,None,test,001,2021_Apr_19_1620,pattern_mismatch,2021.1.4,60.032585687098354,
71,0,71,0,,,,49.97072800000096,50.070615700002236,49.970517100002326,None,test,001,2021_Apr_19_1620,pattern_mismatch,2021.1.4,60.032585687098354,
72,0,72,0,,,,50.470611800000185,None,50.470686299999215,None,test,001,2021_Apr_19_1620,pattern_mismatch,2021.1.4,60.032585687098354,
73,0,73,0,,,,50.97050460000246,None,50.97049070000139,None,test,001,2021_Apr_19_1620,pattern_mismatch,2021.1.4,60.032585687098354,
74,0,74,0,,,,51.47039170000134,None,51.470189700001356,None,test,001,2021_Apr_19_1620,pattern_mismatch,2021.1.4,60.032585687098354,
75,0,75,0,,,,51.971777800002016,None,51.97865720000118,None,test,001,2021_Apr_19_1620,pattern_mismatch,2021.1.4,60.032585687098354,
76,0,76,0,,,,52.47014420000123,None,52.46998789999998,None,test,001,2021_Apr_19_1620,pattern_mismatch,2021.1.4,60.032585687098354,
77,0,77,0,,,,52.97014950000157,None,52.97007180000219,None,test,001,2021_Apr_19_1620,pattern_mismatch,2021.1.4,60.032585687098354,
78,0,78,0,,,,53.469718799999825,None,53.46950099999958,None,test,001,2021_Apr_19_1620,pattern_mismatch,2021.1.4,60.032585687098354,
79,0,79,0,,,,53.969411700000634,None,53.96943680000186,None,test,001,2021_Apr_19_1620,pattern_mismatch,2021.1.4,60.032585687098354,
80,0,80,0,,,,54.46928860000189,54.56923300000199,54.46916169999895,None,test,001,2021_Apr_19_1620,pattern_mismatch,2021.1.4,60.032585687098354,
81,0,81,0,,,,54.96932490000181,None,54.969101800001226,None,test,001,2021_Apr_19_1620,pattern_mismatch,2021.1.4,60.032585687098354,
82,0,82,0,,,,55.46900290000194,None,55.46884539999883,None,test,001,2021_Apr_19_1620,pattern_mismatch,2021.1.4,60.032585687098354,
83,0,83,0,,,,55.96878440000073,None,55.96862340000007,None,test,001,2021_Apr_19_1620,pattern_mismatch,2021.1.4,60.032585687098354,
84,0,84,0,,,,56.46862910000054,None,56.46839980000004,None,test,001,2021_Apr_19_1620,pattern_mismatch,2021.1.4,60.032585687098354,
85,0,85,0,,,,56.96865640000105,None,56.968331500000204,None,test,001,2021_Apr_19_1620,pattern_mismatch,2021.1.4,60.032585687098354,
86,0,86,0,,,,57.468200500000236,None,57.468131800000265,None,test,001,2021_Apr_19_1620,pattern_mismatch,2021.1.4,60.032585687098354,
87,0,87,0,,,,57.968523500000444,None,57.96788160000142,None,test,001,2021_Apr_19_1620,pattern_mismatch,2021.1.4,60.032585687098354,
88,0,88,0,,,,58.46815630000201,None,58.46786010000142,None,test,001,2021_Apr_19_1620,pattern_mismatch,2021.1.4,60.032585687098354,
89,0,89,0,,,,58.96765710000254,None,58.96761340000012,58.96761340000012,test,001,2021_Apr_19_1620,pattern_mismatch,2021.1.4,60.032585687098354,
90,0,90,0,,,,59.46973580000194,None,59.479978200000915,None,test,001,2021_Apr_19_1620,pattern_mismatch,2021.1.4,60.032585687098354,
91,0,91,0,,,,59.984306600000124,None,59.9840449000003,None,test,001,2021_Apr_19_1620,pattern_mismatch,2021.1.4,60.032585687098354,
92,0,92,0,,,,60.48389659999957,None,60.484093400002166,None,test,001,2021_Apr_19_1620,pattern_mismatch,2021.1.4,60.032585687098354,
93,0,93,0,,,,60.98373659999997,None,60.98346899999888,None,test,001,2021_Apr_19_1620,pattern_mismatch,2021.1.4,60.032585687098354,
94,0,94,0,,,,61.48352890000096,None,61.483598700000584,None,test,001,2021_Apr_19_1620,pattern_mismatch,2021.1.4,60.032585687098354,
95,0,95,0,,,,61.983603199999195,None,61.98338630000217,None,test,001,2021_Apr_19_1620,pattern_mismatch,2021.1.4,60.032585687098354,
96,0,96,0,,,,62.48322810000245,62.58305549999932,62.482995300000766,None,test,001,2021_Apr_19_1620,pattern_mismatch,2021.1.4,60.032585687098354,
97,0,97,0,,,,62.983082999999894,None,62.98300930000187,None,test,001,2021_Apr_19_1620,pattern_mismatch,2021.1.4,60.032585687098354,
98,0,98,0,,,,63.483139700002354,None,63.48313580000104,None,test,001,2021_Apr_19_1620,pattern_mismatch,2021.1.4,60.032585687098354,
99,0,99,0,,,,63.9829402000003,None,63.982950400000846,None,test,001,2021_Apr_19_1620,pattern_mismatch,2021.1.4,60.032585687098354,
100,0,100,0,,,,64.48289590000131,None,64.48281829999905,None,test,001,2021_Apr_19_1620,pattern_mismatch,2021.1.4,60.032585687098354,
101,0,101,0,,,,64.98238510000083,None,64.98230070000136,None,test,001,2021_Apr_19_1620,pattern_mismatch,2021.1.4,60.032585687098354,
102,0,102,0,,,,65.48248590000075,None,65.48232550000102,None,test,001,2021_Apr_19_1620,pattern_mismatch,2021.1.4,60.032585687098354,
103,0,103,0,,,,65.98336320000162,None,65.9864512000022,None,test,001,2021_Apr_19_1620,pattern_mismatch,2021.1.4,60.032585687098354,
104,0,104,0,,,,66.4821302999997,None,66.48193520000132,None,test,001,2021_Apr_19_1620,pattern_mismatch,2021.1.4,60.032585687098354,
105,0,105,0,,,,66.98180209999991,67.08213009999963,66.9829604000006,None,test,001,2021_Apr_19_1620,pattern_mismatch,2021.1.4,60.032585687098354,
106,0,106,0,,,,67.48171649999931,None,67.48154830000203,None,test,001,2021_Apr_19_1620,pattern_mismatch,2021.1.4,60.032585687098354,
107,0,107,0,,,,67.98161379999947,68.08188240000163,67.98147810000228,None,test,001,2021_Apr_19_1620,pattern_mismatch,2021.1.4,60.032585687098354,
108,0,108,0,,,,68.48142380000063,None,68.48136750000049,None,test,001,2021_Apr_19_1620,pattern_mismatch,2021.1.4,60.032585687098354,
109,0,109,0,,,,68.98104310000126,None,68.98138200000176,None,test,001,2021_Apr_19_1620,pattern_mismatch,2021.1.4,60.032585687098354,
110,0,110,0,,,,69.48078590000004,None,69.48121560000072,None,test,001,2021_Apr_19_1620,pattern_mismatch,2021.1.4,60.032585687098354,
111,0,111,0,,,,69.981061700001,70.08154579999973,69.98097190000044,None,test,001,2021_Apr_19_1620,pattern_mismatch,2021.1.4,60.032585687098354,
112,0,112,0,,,,70.48075150000004,None,70.48199020000175,None,test,001,2021_Apr_19_1620,pattern_mismatch,2021.1.4,60.032585687098354,
113,0,113,0,,,,70.98043430000034,None,70.9806067999998,None,test,001,2021_Apr_19_1620,pattern_mismatch,2021.1.4,60.032585687098354,
114,0,114,0,,,,71.48017450000116,None,71.47996160000184,None,test,001,2021_Apr_19_1620,pattern_mismatch,2021.1.4,60.032585687098354,
115,0,115,0,,,,71.97989900000248,None,71.97985210000115,None,test,001,2021_Apr_19_1620,pattern_mismatch,2021.1.4,60.032585687098354,
116,0,116,0,,,,72.4799147999991,72.58080390000032,72.4796107000002,None,test,001,2021_Apr_19_1620,pattern_mismatch,2021.1.4,60.032585687098354,
117,0,117,0,,,,72.97964380000194,None,72.97937340000135,None,test,001,2021_Apr_19_1620,pattern_mismatch,2021.1.4,60.032585687098354,
118,0,118,0,,,,73.47950530000234,None,73.47950050000145,None,test,001,2021_Apr_19_1620,pattern_mismatch,2021.1.4,60.032585687098354,
119,0,119,0,,,,73.97968850000034,None,73.97951100000137,None,test,001,2021_Apr_19_1620,pattern_mismatch,2021.1.4,60.032585687098354,
120,0,120,0,,,,74.47977930000052,None,74.48068110000168,None,test,001,2021_Apr_19_1620,pattern_mismatch,2021.1.4,60.032585687098354,
121,0,121,0,,,,74.97892879999999,None,74.97888109999985,None,test,001,2021_Apr_19_1620,pattern_mismatch,2021.1.4,60.032585687098354,
122,0,122,0,,,,75.47884360000243,None,75.47873280000204,None,test,001,2021_Apr_19_1620,pattern_mismatch,2021.1.4,60.032585687098354,
123,0,123,0,,,,75.9797633999995,None,75.98204520000218,None,test,001,2021_Apr_19_1620,pattern_mismatch,2021.1.4,60.032585687098354,
124,0,124,0,,,,76.4783030000006,None,76.47817209999994,None,test,001,2021_Apr_19_1620,pattern_mismatch,2021.1.4,60.032585687098354,
125,0,125,0,,,,76.97848800000138,None,76.97829439999987,None,test,001,2021_Apr_19_1620,pattern_mismatch,2021.1.4,60.032585687098354,
126,0,126,0,,,,77.47811269999947,None,77.4780052999995,None,test,001,2021_Apr_19_1620,pattern_mismatch,2021.1.4,60.032585687098354,
127,0,127,0,,,,77.97812450000201,78.0776979000002,77.97806800000035,None,test,001,2021_Apr_19_1620,pattern_mismatch,2021.1.4,60.032585687098354,
128,0,128,0,,,,78.47813820000083,None,78.47783490000074,None,test,001,2021_Apr_19_1620,pattern_mismatch,2021.1.4,60.032585687098354,
129,0,129,0,,,,78.97774930000087,None,78.97808190000069,None,test,001,2021_Apr_19_1620,pattern_mismatch,2021.1.4,60.032585687098354,
130,0,130,0,,,,79.47797620000055,None,79.47772570000234,None,test,001,2021_Apr_19_1620,pattern_mismatch,2021.1.4,60.032585687098354,
131,0,131,0,,,,79.97730460000166,None,79.9772453000005,None,test,001,2021_Apr_19_1620,pattern_mismatch,2021.1.4,60.032585687098354,
132,0,132,0,,,,80.47716330000257,80.57707859999937,80.47710830000142,None,test,001,2021_Apr_19_1620,pattern_mismatch,2021.1.4,60.032585687098354,
133,0,133,0,,,,80.9772701000009,81.07673960000102,80.97707780000201,None,test,001,2021_Apr_19_1620,pattern_mismatch,2021.1.4,60.032585687098354,
134,0,134,0,,,,81.47661720000251,81.57652090000192,81.47657769999932,None,test,001,2021_Apr_19_1620,pattern_mismatch,2021.1.4,60.032585687098354,
135,0,135,0,,,,81.976685800001,None,81.97653970000101,None,test,001,2021_Apr_19_1620,pattern_mismatch,2021.1.4,60.032585687098354,
136,0,136,0,,,,82.47644830000063,82.57645830000183,82.47659850000127,None,test,001,2021_Apr_19_1620,pattern_mismatch,2021.1.4,60.032585687098354,
137,0,137,0,,,,82.97620840000017,83.07606809999925,82.97602589999951,None,test,001,2021_Apr_19_1620,pattern_mismatch,2021.1.4,60.032585687098354,
138,0,138,0,,,,83.47619900000136,None,83.47594720000052,None,test,001,2021_Apr_19_1620,pattern_mismatch,2021.1.4,60.032585687098354,
139,0,139,0,,,,83.97594590000226,None,83.97587819999899,None,test,001,2021_Apr_19_1620,pattern_mismatch,2021.1.4,60.032585687098354,
140,0,140,0,,,,84.47581290000089,None,84.47565150000082,None,test,001,2021_Apr_19_1620,pattern_mismatch,2021.1.4,60.032585687098354,
141,0,141,0,,,,84.97582720000064,None,84.97561470000073,None,test,001,2021_Apr_19_1620,pattern_mismatch,2021.1.4,60.032585687098354,
142,0,142,0,,,,85.47524720000074,None,85.47528450000027,None,test,001,2021_Apr_19_1620,pattern_mismatch,2021.1.4,60.032585687098354,
143,0,143,0,,,,85.9751729000025,None,85.97508450000169,None,test,001,2021_Apr_19_1620,pattern_mismatch,2021.1.4,60.032585687098354,
144,0,144,0,,,,86.47508250000173,86.5751268999993,86.47476459999962,None,test,001,2021_Apr_19_1620,pattern_mismatch,2021.1.4,60.032585687098354,
145,0,145,0,,,,86.97502349999995,None,86.97479229999954,None,test,001,2021_Apr_19_1620,pattern_mismatch,2021.1.4,60.032585687098354,
146,0,146,0,,,,87.47478430000119,None,87.47478609999962,None,test,001,2021_Apr_19_1620,pattern_mismatch,2021.1.4,60.032585687098354,
147,0,147,0,,,,87.97484429999967,88.07438090000142,87.97426310000083,None,test,001,2021_Apr_19_1620,pattern_mismatch,2021.1.4,60.032585687098354,
148,0,148,0,,,,88.47431230000147,None,88.47487960000217,None,test,001,2021_Apr_19_1620,pattern_mismatch,2021.1.4,60.032585687098354,
149,0,149,0,,,,88.97418560000078,None,88.97410980000132,None,test,001,2021_Apr_19_1620,pattern_mismatch,2021.1.4,60.032585687098354,
150,0,150,0,,,,89.4746920000005,None,89.47383700000137,None,test,001,2021_Apr_19_1620,pattern_mismatch,2021.1.4,60.032585687098354,
151,0,151,0,,,,89.97394649999914,None,89.9741783999998,None,test,001,2021_Apr_19_1620,pattern_mismatch,2021.1.4,60.032585687098354,
152,0,152,0,,,,90.47375090000132,None,90.47340560000157,None,test,001,2021_Apr_19_1620,pattern_mismatch,2021.1.4,60.032585687098354,
153,0,153,0,,,,90.97364970000199,None,90.97350450000158,None,test,001,2021_Apr_19_1620,pattern_mismatch,2021.1.4,60.032585687098354,
154,0,154,0,,,,91.47351659999985,None,91.4733598999992,None,test,001,2021_Apr_19_1620,pattern_mismatch,2021.1.4,60.032585687098354,
155,0,155,0,,,,91.973214800001,92.07305859999906,91.97325350000028,None,test,001,2021_Apr_19_1620,pattern_mismatch,2021.1.4,60.032585687098354,
156,0,156,0,,,,92.47346700000053,None,92.47274789999938,None,test,001,2021_Apr_19_1620,pattern_mismatch,2021.1.4,60.032585687098354,
157,0,157,0,,,,92.97267350000111,None,92.9728099999993,None,test,001,2021_Apr_19_1620,pattern_mismatch,2021.1.4,60.032585687098354,
158,0,158,0,,,,93.4724189000015,None,93.47309379999933,None,test,001,2021_Apr_19_1620,pattern_mismatch,2021.1.4,60.032585687098354,
159,0,159,0,,,,93.97332250000254,None,93.97250730000087,None,test,001,2021_Apr_19_1620,pattern_mismatch,2021.1.4,60.032585687098354,
160,0,160,0,,,,94.47251840000244,None,94.47233340000093,None,test,001,2021_Apr_19_1620,pattern_mismatch,2021.1.4,60.032585687098354,
161,0,161,0,,,,94.97215050000231,None,94.97208500000124,None,test,001,2021_Apr_19_1620,pattern_mismatch,2021.1.4,60.032585687098354,
162,0,162,0,,,,95.47229450000013,None,95.4719937000009,None,test,001,2021_Apr_19_1620,pattern_mismatch,2021.1.4,60.032585687098354,
163,0,163,0,,,,95.97203829999926,None,95.97194909999962,None,test,001,2021_Apr_19_1620,pattern_mismatch,2021.1.4,60.032585687098354,
164,0,164,0,,,,96.47186159999983,None,96.47237490000043,None,test,001,2021_Apr_19_1620,pattern_mismatch,2021.1.4,60.032585687098354,
165,0,165,0,,,,96.97152999999962,None,96.97141080000074,None,test,001,2021_Apr_19_1620,pattern_mismatch,2021.1.4,60.032585687098354,
166,0,166,0,,,,97.47153080000207,97.5711721000007,97.471512600001,None,test,001,2021_Apr_19_1620,pattern_mismatch,2021.1.4,60.032585687098354,
167,0,167,0,,,,97.9710880999999,None,97.97124669999903,None,test,001,2021_Apr_19_1620,pattern_mismatch,2021.1.4,60.032585687098354,
168,0,168,0,,,,98.47094510000242,None,98.4708885,None,test,001,2021_Apr_19_1620,pattern_mismatch,2021.1.4,60.032585687098354,
169,0,169,0,,,,98.97248739999922,None,98.97520420000001,None,test,001,2021_Apr_19_1620,pattern_mismatch,2021.1.4,60.032585687098354,
170,0,170,0,,,,99.4706273000018,None,99.47081429999889,None,test,001,2021_Apr_19_1620,pattern_mismatch,2021.1.4,60.032585687098354,
171,0,171,0,,,,99.97032810000091,None,99.97032989999934,None,test,001,2021_Apr_19_1620,pattern_mismatch,2021.1.4,60.032585687098354,
172,0,172,0,,,,100.47081690000122,None,100.47129710000081,None,test,001,2021_Apr_19_1620,pattern_mismatch,2021.1.4,60.032585687098354,
173,0,173,0,,,,100.97027910000251,None,100.97089029999916,None,test,001,2021_Apr_19_1620,pattern_mismatch,2021.1.4,60.032585687098354,
174,0,174,0,,,,101.47022410000208,None,101.469938000002,None,test,001,2021_Apr_19_1620,pattern_mismatch,2021.1.4,60.032585687098354,
175,0,175,0,,,,101.97230090000157,None,101.96987079999963,None,test,001,2021_Apr_19_1620,pattern_mismatch,2021.1.4,60.032585687098354,
176,0,176,0,,,,102.46985249999925,None,102.46956440000213,None,test,001,2021_Apr_19_1620,pattern_mismatch,2021.1.4,60.032585687098354,
177,0,177,0,,,,102.96982570000254,103.069362000002,102.9697479000024,None,test,001,2021_Apr_19_1620,pattern_mismatch,2021.1.4,60.032585687098354,
178,0,178,0,,,,103.46925540000011,None,103.46920089999912,None,test,001,2021_Apr_19_1620,pattern_mismatch,2021.1.4,60.032585687098354,
179,0,179,0,,,,103.96944449999937,None,103.96933740000168,None,test,001,2021_Apr_19_1620,pattern_mismatch,2021.1.4,60.032585687098354,
180,0,180,0,,,,104.46927890000079,None,104.4690737000019,None,test,001,2021_Apr_19_1620,pattern_mismatch,2021.1.4,60.032585687098354,
181,0,181,0,,,,104.96906250000102,None,104.96887900000002,None,test,001,2021_Apr_19_1620,pattern_mismatch,2021.1.4,60.032585687098354,
182,0,182,0,,,,105.46887449999922,None,105.46869739999966,None,test,001,2021_Apr_19_1620,pattern_mismatch,2021.1.4,60.032585687098354,
183,0,183,0,,,,105.96876749999937,None,105.9684871999998,None,test,001,2021_Apr_19_1620,pattern_mismatch,2021.1.4,60.032585687098354,
184,0,184,0,,,,106.4682421000005,None,106.46828449999884,None,test,001,2021_Apr_19_1620,pattern_mismatch,2021.1.4,60.032585687098354,
185,0,185,0,,,,106.96849450000154,None,106.96837790000063,None,test,001,2021_Apr_19_1620,pattern_mismatch,2021.1.4,60.032585687098354,
186,0,186,0,,,,107.46830970000228,None,107.46780720000243,None,test,001,2021_Apr_19_1620,pattern_mismatch,2021.1.4,60.032585687098354,
187,0,187,0,,,,107.96775980000238,None,107.96773570000005,107.96773570000005,test,001,2021_Apr_19_1620,pattern_mismatch,2021.1.4,60.032585687098354,
188,0,188,0,,,,108.46867339999953,108.56828560000213,108.46881980000035,None,test,001,2021_Apr_19_1620,pattern_mismatch,2021.1.4,60.032585687098354,
189,0,189,0,,,,108.98420510000214,None,108.98439130000042,None,test,001,2021_Apr_19_1620,pattern_mismatch,2021.1.4,60.032585687098354,
190,0,190,0,,,,109.48424220000088,None,109.48412720000124,None,test,001,2021_Apr_19_1620,pattern_mismatch,2021.1.4,60.032585687098354,
191,0,191,0,,,,109.98528800000058,None,109.99013790000026,None,test,001,2021_Apr_19_1620,pattern_mismatch,2021.1.4,60.032585687098354,
192,0,192,0,,,,110.48355050000173,None,110.48337919999904,None,test,001,2021_Apr_19_1620,pattern_mismatch,2021.1.4,60.032585687098354,
193,0,193,0,,,,110.98357749999995,None,110.98337960000208,None,test,001,2021_Apr_19_1620,pattern_mismatch,2021.1.4,60.032585687098354,
194,0,194,0,,,,111.48342720000146,111.58343470000182,111.48346650000167,None,test,001,2021_Apr_19_1620,pattern_mismatch,2021.1.4,60.032585687098354,
195,0,195,0,,,,111.98332100000043,None,111.98328790000232,None,test,001,2021_Apr_19_1620,pattern_mismatch,2021.1.4,60.032585687098354,
196,0,196,0,,,,112.48338249999942,None,112.4843820999995,None,test,001,2021_Apr_19_1620,pattern_mismatch,2021.1.4,60.032585687098354,
197,0,197,0,,,,112.98286140000054,None,112.9827323999998,None,test,001,2021_Apr_19_1620,pattern_mismatch,2021.1.4,60.032585687098354,
198,0,198,0,,,,113.48264310000086,None,113.48239939999985,None,test,001,2021_Apr_19_1620,pattern_mismatch,2021.1.4,60.032585687098354,
199,0,199,0,,,,113.98243340000117,None,113.98259690000123,None,test,001,2021_Apr_19_1620,pattern_mismatch,2021.1.4,60.032585687098354,
200,0,200,0,,,,114.48235529999947,None,114.4823701000023,None,test,001,2021_Apr_19_1620,pattern_mismatch,2021.1.4,60.032585687098354,
201,0,201,0,,,,114.98215960000088,None,114.98199659999955,None,test,001,2021_Apr_19_1620,pattern_mismatch,2021.1.4,60.032585687098354,
202,0,202,0,,,,115.48236890000116,115.58174689999942,115.48168040000019,None,test,001,2021_Apr_19_1620,pattern_mismatch,2021.1.4,60.032585687098354,
203,0,203,0,,,,115.981625600002,None,115.98166230000061,None,test,001,2021_Apr_19_1620,pattern_mismatch,2021.1.4,60.032585687098354,
204,0,204,0,,,,116.48141160000232,None,116.48202230000243,None,test,001,2021_Apr_19_1620,pattern_mismatch,2021.1.4,60.032585687098354,
205,0,205,0,,,,116.9813516000002,None,116.9813224999998,None,test,001,2021_Apr_19_1620,pattern_mismatch,2021.1.4,60.032585687098354,
206,0,206,0,,,,117.48150349999996,None,117.48141899999973,None,test,001,2021_Apr_19_1620,pattern_mismatch,2021.1.4,60.032585687098354,
207,0,207,0,,,,117.98096839999998,None,117.98061059999964,None,test,001,2021_Apr_19_1620,pattern_mismatch,2021.1.4,60.032585687098354,
208,0,208,0,,,,118.48121650000103,None,118.4816948000007,None,test,001,2021_Apr_19_1620,pattern_mismatch,2021.1.4,60.032585687098354,
209,0,209,0,,,,118.98256830000246,None,118.98064440000235,None,test,001,2021_Apr_19_1620,pattern_mismatch,2021.1.4,60.032585687098354,
210,0,210,0,,,,119.48038960000194,None,119.48095979999925,None,test,001,2021_Apr_19_1620,pattern_mismatch,2021.1.4,60.032585687098354,
211,0,211,0,,,,119.98015170000217,120.0800315000015,119.98046190000241,None,test,001,2021_Apr_19_1620,pattern_mismatch,2021.1.4,60.032585687098354,
212,0,212,0,,,,120.48053970000255,None,120.4802305000012,None,test,001,2021_Apr_19_1620,pattern_mismatch,2021.1.4,60.032585687098354,
213,0,213,0,,,,120.98008249999911,121.07988390000173,120.97987189999913,None,test,001,2021_Apr_19_1620,pattern_mismatch,2021.1.4,60.032585687098354,
214,0,214,0,,,,121.47998520000037,None,121.47998559999905,None,test,001,2021_Apr_19_1620,pattern_mismatch,2021.1.4,60.032585687098354,
215,0,215,0,,,,121.97967789999966,None,121.97964649999994,None,test,001,2021_Apr_19_1620,pattern_mismatch,2021.1.4,60.032585687098354,
216,0,216,0,,,,122.47964900000152,None,122.47943200000009,None,test,001,2021_Apr_19_1620,pattern_mismatch,2021.1.4,60.032585687098354,
217,0,217,0,,,,122.97916709999917,None,122.97922219999964,None,test,001,2021_Apr_19_1620,pattern_mismatch,2021.1.4,60.032585687098354,
218,0,218,0,,,,123.47939699999988,None,123.47925580000083,None,test,001,2021_Apr_19_1620,pattern_mismatch,2021.1.4,60.032585687098354,
219,0,219,0,,,,123.9791344000012,None,123.97897190000003,None,test,001,2021_Apr_19_1620,pattern_mismatch,2021.1.4,60.032585687098354,
220,0,220,0,,,,124.47884659999981,None,124.47872840000127,None,test,001,2021_Apr_19_1620,pattern_mismatch,2021.1.4,60.032585687098354,
221,0,221,0,,,,124.9788312000026,None,124.97852359999888,None,test,001,2021_Apr_19_1620,pattern_mismatch,2021.1.4,60.032585687098354,
222,0,222,0,,,,125.47878120000023,None,125.47845830000006,None,test,001,2021_Apr_19_1620,pattern_mismatch,2021.1.4,60.032585687098354,
223,0,223,0,,,,125.97865840000013,None,125.97801270000127,None,test,001,2021_Apr_19_1620,pattern_mismatch,2021.1.4,60.032585687098354,
224,0,224,0,,,,126.47865660000097,126.57854230000157,126.47864900000059,None,test,001,2021_Apr_19_1620,pattern_mismatch,2021.1.4,60.032585687098354,
225,0,225,0,,,,126.9799987000013,None,126.98219450000033,None,test,001,2021_Apr_19_1620,pattern_mismatch,2021.1.4,60.032585687098354,
226,0,226,0,,,,127.47960820000007,None,127.47784239999964,None,test,001,2021_Apr_19_1620,pattern_mismatch,2021.1.4,60.032585687098354,
227,0,227,0,,,,127.9777277000001,None,127.97759260000021,None,test,001,2021_Apr_19_1620,pattern_mismatch,2021.1.4,60.032585687098354,
228,0,228,0,,,,128.47767870000172,None,128.47764449999886,None,test,001,2021_Apr_19_1620,pattern_mismatch,2021.1.4,60.032585687098354,
229,0,229,0,,,,128.97724190000082,None,128.97712909999973,None,test,001,2021_Apr_19_1620,pattern_mismatch,2021.1.4,60.032585687098354,
230,0,230,0,,,,129.47740659999982,None,129.47769680000056,None,test,001,2021_Apr_19_1620,pattern_mismatch,2021.1.4,60.032585687098354,
231,0,231,0,,,,129.97750069999967,None,129.9770294000009,None,test,001,2021_Apr_19_1620,pattern_mismatch,2021.1.4,60.032585687098354,
232,0,232,0,,,,130.4768708000018,130.57653810000193,130.47664219999933,None,test,001,2021_Apr_19_1620,pattern_mismatch,2021.1.4,60.032585687098354,
233,0,233,0,,,,130.97654210000184,131.07639030000064,130.97677710000062,None,test,001,2021_Apr_19_1620,pattern_mismatch,2021.1.4,60.032585687098354,
234,0,234,0,,,,131.47647940000098,None,131.47639750000235,None,test,001,2021_Apr_19_1620,pattern_mismatch,2021.1.4,60.032585687098354,
235,0,235,0,,,,131.97737599999965,None,131.97613450000063,None,test,001,2021_Apr_19_1620,pattern_mismatch,2021.1.4,60.032585687098354,
236,0,236,0,,,,132.4766282000026,132.57593370000177,132.47627130000183,None,test,001,2021_Apr_19_1620,pattern_mismatch,2021.1.4,60.032585687098354,
237,0,237,0,,,,132.97643089999912,None,132.97590130000026,None,test,001,2021_Apr_19_1620,pattern_mismatch,2021.1.4,60.032585687098354,
238,0,238,0,,,,133.47615220000154,None,133.47701360000065,None,test,001,2021_Apr_19_1620,pattern_mismatch,2021.1.4,60.032585687098354,
239,0,239,0,,,,133.97570310000157,None,133.97536400000172,None,test,001,2021_Apr_19_1620,pattern_mismatch,2021.1.4,60.032585687098354,
240,0,240,0,,,,134.47572270000165,None,134.4755111000013,None,test,001,2021_Apr_19_1620,pattern_mismatch,2021.1.4,60.032585687098354,
241,0,241,0,,,,134.97524740000227,135.07527680000203,134.97524650000196,None,test,001,2021_Apr_19_1620,pattern_mismatch,2021.1.4,60.032585687098354,
242,0,242,0,,,,135.47521789999956,None,135.47491179999997,None,test,001,2021_Apr_19_1620,pattern_mismatch,2021.1.4,60.032585687098354,
243,0,243,0,,,,135.9758501000004,None,135.98056039999938,None,test,001,2021_Apr_19_1620,pattern_mismatch,2021.1.4,60.032585687098354,
244,0,244,0,,,,136.47472180000187,None,136.4747368999997,None,test,001,2021_Apr_19_1620,pattern_mismatch,2021.1.4,60.032585687098354,
245,0,245,0,,,,136.97462010000237,None,136.9743019000016,None,test,001,2021_Apr_19_1620,pattern_mismatch,2021.1.4,60.032585687098354,
246,0,246,0,,,,137.47434159999904,None,137.47407150000072,None,test,001,2021_Apr_19_1620,pattern_mismatch,2021.1.4,60.032585687098354,
247,0,247,0,,,,137.97400120000094,None,137.9740285000007,None,test,001,2021_Apr_19_1620,pattern_mismatch,2021.1.4,60.032585687098354,
248,0,248,0,,,,138.4743757000004,None,138.47411920000013,None,test,001,2021_Apr_19_1620,pattern_mismatch,2021.1.4,60.032585687098354,
249,0,249,0,,,,138.9738786999995,139.07390769999984,138.9741556000008,None,test,001,2021_Apr_19_1620,pattern_mismatch,2021.1.4,60.032585687098354,
